27 45
11407.936 LNC
12
  555314.040  1849169.460
  555351.050  1849287.590
  555385.720  1849281.300
  555394.810  1849325.020
  555313.530  1849364.960
  555336.740  1849324.440
  555343.900  1849302.330
  555327.930  1849294.910
  555278.250  1849261.590
  555260.610  1849209.900
  555241.160  1849171.120
  555274.980  1849152.760
end
31 45
9548.318 L/n
12
  555321.360  1849086.490
  555360.460  1849088.430
  555379.870  1849141.970
  555356.490  1849247.030
  555356.490  1849247.030
  555351.050  1849287.590
  555351.050  1849287.590
  555314.040  1849169.460
  555314.040  1849169.460
  555274.980  1849152.760
  555274.980  1849152.760
  555321.360  1849086.490
end
28 45
5761.894 L/n
14
  555356.490  1849247.030
  555381.970  1849245.950
  555381.970  1849245.950
  555501.270  1849196.760
  555513.650  1849220.770
  555466.680  1849247.330
  555466.680  1849247.330
  555406.170  1849278.520
  555406.170  1849278.520
  555385.720  1849281.300
  555385.720  1849281.300
  555351.050  1849287.590
  555351.050  1849287.590
  555356.490  1849247.030
end
26 45
6573.228 L/n
14
  555406.170  1849278.520
  555466.680  1849247.330
  555466.680  1849247.330
  555482.060  1849314.490
  555482.060  1849314.490
  555421.960  1849356.020
  555421.960  1849356.020
  555402.400  1849361.510
  555402.400  1849361.510
  555394.810  1849325.020
  555394.810  1849325.020
  555385.720  1849281.300
  555385.720  1849281.300
  555406.170  1849278.520
end
20 45
7682.649 L/n
16
  555402.400  1849361.510
  555421.960  1849356.020
  555421.960  1849356.020
  555411.570  1849423.970
  555411.570  1849423.970
  555391.560  1849427.870
  555391.560  1849427.870
  555356.600  1849437.020
  555356.600  1849437.020
  555320.560  1849394.490
  555320.560  1849394.490
  555313.530  1849364.960
  555313.530  1849364.960
  555394.810  1849325.020
  555394.810  1849325.020
  555402.400  1849361.510
end
22 45
41365.768 L/n
31
  555320.560  1849394.490
  555281.400  1849418.360
  555281.400  1849418.360
  555198.570  1849450.500
  555198.570  1849450.500
  555158.640  1849465.990
  555158.640  1849465.990
  555146.180  1849471.490
  555146.180  1849471.490
  555112.420  1849469.560
  555112.420  1849469.560
  555075.040  1849493.440
  555075.040  1849493.440
  555059.080  1849480.490
  555091.190  1849432.620
  555091.190  1849432.620
  555085.970  1849423.280
  555085.970  1849423.280
  555066.420  1849388.290
  555066.420  1849388.290
  555075.520  1849307.170
  555075.520  1849307.170
  555278.250  1849261.590
  555278.250  1849261.590
  555327.930  1849294.910
  555327.930  1849294.910
  555343.900  1849302.330
  555336.740  1849324.440
  555313.530  1849364.960
  555313.530  1849364.960
  555320.560  1849394.490
end
22 45
41365.768 L/n
31
  555320.560  1849394.490
  555281.400  1849418.360
  555281.400  1849418.360
  555198.570  1849450.500
  555198.570  1849450.500
  555158.640  1849465.990
  555158.640  1849465.990
  555146.180  1849471.490
  555146.180  1849471.490
  555112.420  1849469.560
  555112.420  1849469.560
  555075.040  1849493.440
  555075.040  1849493.440
  555059.080  1849480.490
  555091.190  1849432.620
  555091.190  1849432.620
  555085.970  1849423.280
  555085.970  1849423.280
  555066.420  1849388.290
  555066.420  1849388.290
  555075.520  1849307.170
  555075.520  1849307.170
  555278.250  1849261.590
  555278.250  1849261.590
  555327.930  1849294.910
  555327.930  1849294.910
  555343.900  1849302.330
  555336.740  1849324.440
  555313.530  1849364.960
  555313.530  1849364.960
  555320.560  1849394.490
end
31 45
9548.318 L/n
12
  555321.360  1849086.490
  555360.460  1849088.430
  555379.870  1849141.970
  555356.490  1849247.030
  555356.490  1849247.030
  555351.050  1849287.590
  555351.050  1849287.590
  555314.040  1849169.460
  555314.040  1849169.460
  555274.980  1849152.760
  555274.980  1849152.760
  555321.360  1849086.490
end
