31 47
5517.977 LNC
8
  554733.140  1848793.990
  554742.730  1848796.440
  554796.280  1848823.510
  554805.670  1848847.440
  554774.170  1848880.500
  554770.630  1848880.270
  554715.530  1848876.660
  554707.910  1848874.000
end
22 47
3556.860 L/n
21
  554800.800  1848891.630
  554815.070  1848871.380
  554805.670  1848847.440
  554805.670  1848847.440
  554796.280  1848823.510
  554796.280  1848823.510
  554811.420  1848842.800
  554861.530  1848917.510
  554886.550  1848932.220
  554893.870  1848937.980
  554873.550  1848934.500
  554841.140  1848928.500
  554773.070  1848899.950
  554773.070  1848899.950
  554771.970  1848900.060
  554771.970  1848900.060
  554770.630  1848880.270
  554770.630  1848880.270
  554774.170  1848880.500
  554774.170  1848880.500
  554800.800  1848891.630
end
27 47
881.478 L/n
7
  554805.670  1848847.440
  554815.070  1848871.380
  554800.800  1848891.630
  554800.800  1848891.630
  554774.170  1848880.500
  554774.170  1848880.500
  554805.670  1848847.440
end
22 47
3556.860 L/n
21
  554800.800  1848891.630
  554815.070  1848871.380
  554805.670  1848847.440
  554805.670  1848847.440
  554796.280  1848823.510
  554796.280  1848823.510
  554811.420  1848842.800
  554861.530  1848917.510
  554886.550  1848932.220
  554893.870  1848937.980
  554873.550  1848934.500
  554841.140  1848928.500
  554773.070  1848899.950
  554773.070  1848899.950
  554771.970  1848900.060
  554771.970  1848900.060
  554770.630  1848880.270
  554770.630  1848880.270
  554774.170  1848880.500
  554774.170  1848880.500
  554800.800  1848891.630
end
26 47
8328.528 L/n
26
  554771.970  1848900.060
  554770.630  1848880.270
  554770.630  1848880.270
  554715.530  1848876.660
  554715.530  1848876.660
  554707.910  1848874.000
  554707.910  1848874.000
  554683.570  1848865.510
  554683.570  1848865.510
  554659.630  1848883.480
  554659.630  1848883.480
  554644.390  1848894.920
  554644.390  1848894.920
  554626.380  1848903.590
  554626.380  1848903.590
  554621.890  1848784.050
  554621.890  1848784.050
  554594.920  1848783.980
  554594.920  1848783.980
  554600.100  1848837.250
  554600.100  1848837.250
  554598.570  1848913.190
  554600.530  1848938.340
  554653.920  1848919.490
  554691.650  1848908.410
  554771.970  1848900.060
end
26 47
8328.528 L/n
26
  554771.970  1848900.060
  554770.630  1848880.270
  554770.630  1848880.270
  554715.530  1848876.660
  554715.530  1848876.660
  554707.910  1848874.000
  554707.910  1848874.000
  554683.570  1848865.510
  554683.570  1848865.510
  554659.630  1848883.480
  554659.630  1848883.480
  554644.390  1848894.920
  554644.390  1848894.920
  554626.380  1848903.590
  554626.380  1848903.590
  554621.890  1848784.050
  554621.890  1848784.050
  554594.920  1848783.980
  554594.920  1848783.980
  554600.100  1848837.250
  554600.100  1848837.250
  554598.570  1848913.190
  554600.530  1848938.340
  554653.920  1848919.490
  554691.650  1848908.410
  554771.970  1848900.060
end
30 47
3756.653 L/n
10
  554691.290  1848783.310
  554733.140  1848793.990
  554733.140  1848793.990
  554707.910  1848874.000
  554707.910  1848874.000
  554683.570  1848865.510
  554683.570  1848865.510
  554659.630  1848883.480
  554659.630  1848883.480
  554691.290  1848783.310
end
