4 50
8070.558 L/n
7
  551696.810  1848531.410
  551714.530  1848553.590
  551808.690  1848564.880
  551812.180  1848592.560
  551746.350  1848621.910
  551698.390  1848610.720
  551650.340  1848636.430
end
5 50
56841.820 L/n
43
  551665.000  1848453.870
  551750.210  1848492.810
  551750.210  1848492.810
  551782.170  1848507.650
  551782.170  1848507.650
  551833.710  1848509.620
  551833.710  1848509.620
  551951.790  1848454.980
  551951.790  1848454.980
  552077.690  1848526.940
  552077.690  1848526.940
  552080.620  1848528.610
  552080.620  1848528.610
  552120.150  1848487.810
  552120.150  1848487.810
  552127.780  1848491.410
  552127.780  1848491.410
  552087.070  1848533.440
  552087.070  1848533.440
  552090.680  1848534.430
  552090.680  1848534.430
  551983.590  1848718.600
  551983.590  1848718.600
  551970.630  1848711.060
  551970.630  1848711.060
  551932.050  1848701.060
  551932.050  1848701.060
  551812.180  1848592.560
  551812.180  1848592.560
  551808.700  1848564.880
  551714.530  1848553.590
  551714.530  1848553.590
  551696.810  1848531.410
  551696.810  1848531.410
  551663.070  1848516.580
  551663.070  1848516.580
  551624.030  1848492.510
  551624.030  1848492.510
  551595.600  1848490.590
  551595.600  1848490.590
  551592.230  1848475.720
  551592.230  1848475.720
  551665.000  1848453.870
end
5 50
56841.820 L/n
43
  551665.000  1848453.870
  551750.210  1848492.810
  551750.210  1848492.810
  551782.170  1848507.650
  551782.170  1848507.650
  551833.710  1848509.620
  551833.710  1848509.620
  551951.790  1848454.980
  551951.790  1848454.980
  552077.690  1848526.940
  552077.690  1848526.940
  552080.620  1848528.610
  552080.620  1848528.610
  552120.150  1848487.810
  552120.150  1848487.810
  552127.780  1848491.410
  552127.780  1848491.410
  552087.070  1848533.440
  552087.070  1848533.440
  552090.680  1848534.430
  552090.680  1848534.430
  551983.590  1848718.600
  551983.590  1848718.600
  551970.630  1848711.060
  551970.630  1848711.060
  551932.050  1848701.060
  551932.050  1848701.060
  551812.180  1848592.560
  551812.180  1848592.560
  551808.700  1848564.880
  551714.530  1848553.590
  551714.530  1848553.590
  551696.810  1848531.410
  551696.810  1848531.410
  551663.070  1848516.580
  551663.070  1848516.580
  551624.030  1848492.510
  551624.030  1848492.510
  551595.600  1848490.590
  551595.600  1848490.590
  551592.230  1848475.720
  551592.230  1848475.720
  551665.000  1848453.870
end
3 50
23607.501 L/n
23
  551650.340  1848636.430
  551698.390  1848610.720
  551746.350  1848621.910
  551746.350  1848621.910
  551812.180  1848592.560
  551812.180  1848592.560
  551932.050  1848701.060
  551932.050  1848701.060
  551970.630  1848711.060
  551970.630  1848711.060
  551983.590  1848718.600
  551983.590  1848718.600
  551980.590  1848742.510
  551980.590  1848742.510
  551931.000  1848710.750
  551931.000  1848710.750
  551911.220  1848764.470
  551911.220  1848764.470
  551671.440  1848657.700
  551671.440  1848657.700
  551637.010  1848638.910
  551637.010  1848638.910
  551650.340  1848636.430
end
3 50
23607.501 L/n
23
  551650.340  1848636.430
  551698.390  1848610.720
  551746.350  1848621.910
  551746.350  1848621.910
  551812.180  1848592.560
  551812.180  1848592.560
  551932.050  1848701.060
  551932.050  1848701.060
  551970.630  1848711.060
  551970.630  1848711.060
  551983.590  1848718.600
  551983.590  1848718.600
  551980.590  1848742.510
  551980.590  1848742.510
  551931.000  1848710.750
  551931.000  1848710.750
  551911.220  1848764.470
  551911.220  1848764.470
  551671.440  1848657.700
  551671.440  1848657.700
  551637.010  1848638.910
  551637.010  1848638.910
  551650.340  1848636.430
end
6 50
4789.355 L/n
12
  551663.070  1848516.580
  551696.810  1848531.410
  551696.810  1848531.410
  551650.340  1848636.430
  551650.340  1848636.430
  551637.010  1848638.910
  551637.010  1848638.910
  551632.560  1848636.480
  551632.560  1848636.480
  551609.050  1848624.890
  551609.050  1848624.890
  551663.070  1848516.580
end
